File: XRD/PDC_LDFZ_20200720_1_217_1_(PTF1_20200715)_Bi2WO6_vapor_4hr.csv
5.0,27496.0
5.05147,27216.0
5.10294,26398.0
5.1544,25895.0
5.20587,25159.0
5.25734,24507.0
5.30881,24321.0
5.36028,23765.0
5.41175,23088.0
5.46321,22917.0
5.514683,22297.0
5.56615,21572.0
5.61762,21381.0
5.66909,21008.0
5.72056,20407.0
5.77202,20283.0
5.82349,19678.0
5.87496,19291.0
5.92643,18907.0
5.9779,18487.0
6.029366,18471.0
6.08083,17927.0
6.1323,17627.0
6.18377,17284.0
6.23524,16853.0
6.28671,16491.0
6.33818,16025.0
6.38964,15719.0
6.44111,15519.0
6.49258,14991.0
6.544049,14684.0
6.59552,14270.0
6.64699,13756.0
6.69845,13474.0
6.74992,13041.0
6.80139,12659.0
6.85286,12684.0
6.90433,12016.0
6.9558,11554.0
7.00726,11308.0
7.058732,11045.0
7.1102,10554.0
7.16167,10170.0
7.21314,10066.0
7.26461,9658.0
7.31607,9224.0
7.36754,9159.0
7.41901,8819.0
7.47048,8779.0
7.52195,8407.0
7.57342,8180.0
7.62488,8066.0
7.67635,7964.0
7.72782,7719.0
7.77929,7477.0
7.83076,7559.0
7.88222,7467.0
7.93369,7327.0
7.98516,7299.0
8.03663,7414.0
8.088098,7531.0
8.13957,7543.0
8.19103,7350.0
8.2425,7547.0
8.29397,7399.0
8.34544,7431.0
8.39691,7630.0
8.44838,7621.0
8.49984,7501.0
8.55131,7680.0
8.602781,7670.0
8.65425,7594.0
8.70572,7654.0
8.75719,7787.0
8.80865,8010.0
8.86012,7704.0
8.91159,7818.0
8.96306,7662.0
9.01453,7798.0
9.066,7793.0
9.117464,7665.0
9.16893,7938.0
9.2204,7994.0
9.27187,7942.0
9.32334,7954.0
9.37481,7902.0
9.42627,7783.0
9.47774,7909.0
9.52921,8078.0
9.58068,7929.0
9.632147,8062.0
9.68362,7900.0
9.73508,7869.0
9.78655,7985.0
9.83802,8092.0
9.88949,8134.0
9.94096,8188.0
9.99243,8325.0
10.0439,8263.0
10.0954,8403.0
10.1468,8190.0
10.1983,8250.0
10.2498,8163.0
10.3012,8164.0
10.3527,7975.0
10.4042,8047.0
10.4556,8099.0
10.5071,8110.0
10.5586,8046.0
10.61,8069.0
10.6615,8068.0
10.713,7973.0
10.7644,8033.0
10.8159,8268.0
10.8674,8082.0
10.9189,7856.0
10.9703,7794.0
11.0218,7766.0
11.0733,7807.0
11.1247,7834.0
11.1762,7746.0
11.2277,7757.0
11.2791,7715.0
11.3306,7675.0
11.3821,7769.0
11.4335,7476.0
11.485,7550.0
11.5365,7564.0
11.5879,7558.0
11.6394,7686.0
11.6909,7494.0
11.7423,7651.0
11.7938,7462.0
11.8453,7451.0
11.8968,7400.0
11.9482,7214.0
11.9997,7213.0
12.0512,7195.0
12.1026,7206.0
12.1541,7043.0
12.2056,7154.0
12.257,7163.0
12.3085,7036.0
12.36,7075.0
12.4114,6991.0
12.4629,7035.0
12.5144,6921.0
12.5658,6785.0
12.6173,6815.0
12.6688,6902.0
12.7202,6670.0
12.7717,6731.0
12.8232,6601.0
12.8746,6615.0
12.9261,6570.0
12.9776,6488.0
13.0291,6606.0
13.0805,6421.0
13.132,6548.0
13.1835,6404.0
13.2349,6367.0
13.2864,6336.0
13.3379,6308.0
13.3893,6283.0
13.4408,6290.0
13.4923,6180.0
13.5437,6337.0
13.5952,6132.0
13.6467,6165.0
13.6981,6013.0
13.7496,5979.0
13.8011,6013.0
13.8525,6089.0
13.904,5934.0
13.9555,5880.0
14.007,5955.0
14.0584,5984.0
14.1099,5797.0
14.1614,5705.0
14.2128,5775.0
14.2643,5811.0
14.3158,5802.0
14.3672,5702.0
14.4187,5707.0
14.4702,5610.0
14.5216,5564.0
14.5731,5603.0
14.6246,5658.0
14.676,5369.0
14.7275,5536.0
14.779,5551.0
14.8304,5543.0
14.8819,5484.0
14.9334,5553.0
14.9849,5478.0
15.0363,5371.0
15.0878,5469.0
15.1393,5454.0
15.1907,5488.0
15.2422,5375.0
15.2937,5394.0
15.3451,5265.0
15.3966,5443.0
15.4481,5440.0
15.4995,5461.0
15.551,5283.0
15.6025,5248.0
15.6539,5360.0
15.7054,5407.0
15.7569,5308.0
15.8083,5333.0
15.8598,5305.0
15.9113,5413.0
15.9627,5425.0
16.0142,5451.0
16.0657,5512.0
16.1172,5450.0
16.1686,5397.0
16.2201,5479.0
16.2716,5344.0
16.323,5396.0
16.3745,5510.0
16.426,5389.0
16.4774,5381.0
16.5289,5393.0
16.5804,5410.0
16.6318,5498.0
16.6833,5423.0
16.7348,5400.0
16.7862,5462.0
16.8377,5491.0
16.8892,5480.0
16.9406,5632.0
16.9921,5509.0
17.0436,5484.0
17.0951,5585.0
17.1465,5399.0
17.198,5357.0
17.2495,5535.0
17.3009,5505.0
17.3524,5534.0
17.4039,5488.0
17.4553,5483.0
17.5068,5566.0
17.5583,5519.0
17.6097,5482.0
17.6612,5589.0
17.7127,5493.0
17.7641,5501.0
17.8156,5363.0
17.8671,5559.0
17.9185,5614.0
17.97,5556.0
18.0215,5635.0
18.0729,5592.0
18.1244,5578.0
18.1759,5649.0
18.2274,5556.0
18.2788,5571.0
18.3303,5573.0
18.3818,5715.0
18.4332,5613.0
18.4847,5537.0
18.5362,5718.0
18.5876,5532.0
18.6391,5691.0
18.6906,5703.0
18.742,5735.0
18.7935,5592.0
18.845,5745.0
18.8964,5760.0
18.9479,5714.0
18.9994,5569.0
19.0508,5776.0
19.1023,5644.0
19.1538,5720.0
19.2053,5625.0
19.2567,5557.0
19.3082,5733.0
19.3597,5666.0
19.4111,5614.0
19.4626,5619.0
19.5141,5751.0
19.5655,5723.0
19.617,5784.0
19.6685,5651.0
19.7199,5875.0
19.7714,5803.0
19.8229,5835.0
19.8743,5728.0
19.9258,5812.0
19.9773,5784.0
20.0287,5765.0
20.0802,5829.0
20.1317,5994.0
20.1831,5814.0
20.2346,5638.0
20.2861,5805.0
20.3376,5678.0
20.389,5856.0
20.44049,5716.0
20.492,5725.0
20.5434,5840.0
20.5949,5791.0
20.6464,5790.0
20.6978,5656.0
20.7493,5749.0
20.8008,5761.0
20.8522,5936.0
20.9037,5791.0
20.9552,5894.0
21.0066,5767.0
21.0581,5844.0
21.1096,5774.0
21.161,5839.0
21.2125,5956.0
21.264,6023.0
21.3155,5813.0
21.3669,5862.0
21.4184,5816.0
21.4699,5892.0
21.5213,6132.0
21.5728,5899.0
21.6243,5934.0
21.6757,6032.0
21.7272,6015.0
21.7787,5975.0
21.8301,6084.0
21.8816,5917.0
21.9331,5990.0
21.9845,5892.0
22.036,5880.0
22.0875,6079.0
22.1389,5880.0
22.1904,6098.0
22.2419,6101.0
22.2933,5960.0
22.3448,6223.0
22.3963,6042.0
22.4478,6166.0
22.4992,6184.0
22.5507,6228.0
22.6022,6337.0
22.6536,6246.0
22.7051,6323.0
22.7566,6361.0
22.808,6345.0
22.8595,6283.0
22.911,6207.0
22.9624,6396.0
23.0139,6147.0
23.0654,6235.0
23.1168,6348.0
23.1683,6222.0
23.2198,6093.0
23.2712,6307.0
23.3227,5993.0
23.3742,6239.0
23.4257,6123.0
23.4771,6159.0
23.5286,6192.0
23.5801,6099.0
23.6315,6413.0
23.683,6335.0
23.7345,6237.0
23.7859,6349.0
23.8374,6153.0
23.8889,6261.0
23.9403,6245.0
23.9918,6285.0
24.0433,6344.0
24.0947,6485.0
24.1462,6323.0
24.1977,6351.0
24.2491,6185.0
24.3006,6258.0
24.3521,6209.0
24.4035,6244.0
24.455,6256.0
24.5065,6253.0
24.558,6301.0
24.6094,6246.0
24.6609,6309.0
24.7124,6338.0
24.7638,6256.0
24.8153,6387.0
24.8668,6360.0
24.9182,6281.0
24.9697,6329.0
25.0212,6466.0
25.0726,6257.0
25.1241,6339.0
25.1756,6494.0
25.227,6469.0
25.2785,6550.0
25.33,6572.0
25.3814,6481.0
25.4329,6377.0
25.4844,6631.0
25.5359,6647.0
25.5873,6541.0
25.6388,6544.0
25.6903,6696.0
25.7417,6603.0
25.7932,6816.0
25.8447,6662.0
25.8961,6774.0
25.9476,6801.0
25.9991,6959.0
26.0505,6898.0
26.102,7026.0
26.1535,7137.0
26.2049,7186.0
26.2564,7299.0
26.3079,7401.0
26.3593,7444.0
26.4108,7563.0
26.4623,7573.0
26.5137,7763.0
26.5652,8212.0
26.6167,8220.0
26.6682,8352.0
26.7196,8768.0
26.7711,9132.0
26.8226,9465.0
26.874,9799.0
26.9255,10621.0
26.977,11142.0
27.0284,12309.0
27.0799,13321.0
27.1314,14238.0
27.1828,15247.0
27.2343,16331.0
27.2858,17259.0
27.3372,18018.0
27.3887,18367.0
27.4402,18727.0
27.4916,18701.0
27.5431,18666.0
27.5946,18320.0
27.6461,17855.0
27.6975,17344.0
27.749,16956.0
27.8005,15887.0
27.8519,15381.0
27.9034,14407.0
27.9549,13757.0
28.0063,13021.0
28.0578,12131.0
28.1093,11618.0
28.1607,11299.0
28.2122,10642.0
28.2637,10374.0
28.3151,10096.0
28.3666,10445.0
28.4181,11154.0
28.4695,11151.0
28.521,10163.0
28.5725,9037.0
28.6239,8632.0
28.6754,8419.0
28.7269,8269.0
28.7784,8119.0
28.8298,7915.0
28.8813,7860.0
28.9328,7663.0
28.9842,7665.0
29.0357,7499.0
29.0872,7457.0
29.1386,7408.0
29.1901,7372.0
29.2416,7358.0
29.293,7188.0
29.3445,7184.0
29.396,7065.0
29.4474,7194.0
29.4989,7037.0
29.5504,6967.0
29.6018,6832.0
29.6533,6913.0
29.7048,6701.0
29.7563,6736.0
29.8077,6639.0
29.8592,6832.0
29.9107,6706.0
29.9621,6727.0
30.0136,6585.0
30.0651,6667.0
30.1165,6551.0
30.168,6497.0
30.2195,6300.0
30.2709,6394.0
30.3224,6310.0
30.3739,6314.0
30.4253,6299.0
30.4768,6216.0
30.5283,6281.0
30.5797,6296.0
30.6312,6156.0
30.6827,6183.0
30.73415,6046.0
30.7856,6246.0
30.8371,6121.0
30.8886,6116.0
30.94,6108.0
30.9915,6185.0
31.043,6243.0
31.0944,6212.0
31.1459,6254.0
31.1974,6067.0
31.2488,6131.0
31.3003,6103.0
31.3518,6165.0
31.4032,6334.0
31.4547,6314.0
31.5062,6396.0
31.5576,6530.0
31.6091,6530.0
31.6606,6528.0
31.712,6779.0
31.7635,6864.0
31.815,6841.0
31.8665,7047.0
31.9179,7022.0
31.9694,7227.0
32.0209,7221.0
32.0723,7285.0
32.1238,7061.0
32.1753,6982.0
32.2267,6975.0
32.2782,6927.0
32.3297,6643.0
32.3811,6521.0
32.4326,6256.0
32.4841,6151.0
32.5355,6012.0
32.587,5973.0
32.6385,5848.0
32.6899,5796.0
32.7414,5749.0
32.7929,5760.0
32.8444,5821.0
32.8958,5975.0
32.9473,6868.0
32.9988,6081.0
33.0502,6579.0
33.1017,6373.0
33.1532,5622.0
33.2046,5262.0
33.2561,4881.0
33.3076,4736.0
33.359,4629.0
33.4105,4731.0
33.462,4755.0
33.5134,4510.0
33.5649,4578.0
33.6164,4552.0
33.6678,4466.0
33.7193,4244.0
33.7708,4433.0
33.8222,4301.0
33.8737,4316.0
33.9252,4390.0
33.9767,4360.0
34.0281,4339.0
34.0796,4137.0
34.1311,4235.0
34.1825,4247.0
34.234,4201.0
34.2855,4237.0
34.3369,4056.0
34.3884,4231.0
34.4399,4110.0
34.4913,4096.0
34.5428,4066.0
34.5943,3982.0
34.6457,4129.0
34.6972,4022.0
34.7487,4020.0
34.8001,3924.0
34.8516,3965.0
34.9031,3842.0
34.9546,3882.0
35.006,3936.0
35.0575,3907.0
35.109,3897.0
35.1604,3905.0
35.2119,3813.0
35.2634,3906.0
35.3148,3831.0
35.3663,3750.0
35.4178,3776.0
35.4692,3739.0
35.5207,3705.0
35.5722,3746.0
35.6236,3682.0
35.6751,3775.0
35.7266,3682.0
35.778,3702.0
35.8295,3545.0
35.88098,3645.0
35.9324,3636.0
35.9839,3647.0
36.0354,3682.0
36.0869,3659.0
36.1383,3557.0
36.1898,3511.0
36.2413,3542.0
36.2927,3629.0
36.3442,3554.0
36.3957,3519.0
36.4471,3525.0
36.4986,3480.0
36.5501,3459.0
36.6015,3510.0
36.653,3548.0
36.7045,3457.0
36.7559,3570.0
36.8074,3384.0
36.8589,3525.0
36.9103,3502.0
36.9618,3494.0
37.0133,3338.0
37.0648,3524.0
37.1162,3456.0
37.1677,3525.0
37.2192,3588.0
37.2706,3576.0
37.3221,3498.0
37.3736,3502.0
37.425,3682.0
37.4765,3586.0
37.528,3608.0
37.5794,3785.0
37.6309,3836.0
37.6824,3821.0
37.7338,4069.0
37.7853,4160.0
37.8368,4433.0
37.8882,4501.0
37.9397,4612.0
37.9912,4957.0
38.0426,5170.0
38.0941,5211.0
38.1456,5279.0
38.1971,5312.0
38.2485,5340.0
38.3,5218.0
38.3515,5004.0
38.4029,4927.0
38.4544,4764.0
38.5059,4605.0
38.5573,4582.0
38.6088,4412.0
38.6603,4330.0
38.7117,4096.0
38.7632,3919.0
38.8147,3899.0
38.8661,3819.0
38.9176,3791.0
38.9691,3817.0
39.0205,3710.0
39.072,3728.0
39.1235,3771.0
39.175,3816.0
39.2264,3869.0
39.2779,3869.0
39.3294,4088.0
39.3808,4116.0
39.4323,4162.0
39.4838,4405.0
39.5352,4757.0
39.5867,4883.0
39.6382,5017.0
39.6896,5350.0
39.7411,5441.0
39.7926,5631.0
39.844,5362.0
39.8955,5315.0
39.947,5231.0
39.9984,4977.0
40.0499,4904.0
40.1014,4627.0
40.1528,4424.0
40.2043,4198.0
40.2558,4102.0
40.3073,3763.0
40.3587,3614.0
40.4102,3655.0
40.4617,3592.0
40.5131,3364.0
40.5646,3385.0
40.6161,3377.0
40.6675,3276.0
40.719,3155.0
40.7705,3224.0
40.8219,3052.0
40.8734,3172.0
40.9249,3123.0
40.9763,3137.0
41.02781,3005.0
41.0793,3009.0
41.1307,2998.0
41.1822,2875.0
41.2337,2979.0
41.2852,2983.0
41.3366,3059.0
41.3881,3107.0
41.4396,3023.0
41.491,3026.0
41.5425,2984.0
41.594,2982.0
41.6454,3020.0
41.6969,3104.0
41.7484,2987.0
41.7998,2970.0
41.8513,2966.0
41.9028,2994.0
41.9542,2950.0
42.0057,3019.0
42.0572,3078.0
42.1086,3069.0
42.1601,2975.0
42.2116,3027.0
42.263,3014.0
42.3145,2983.0
42.366,2953.0
42.4175,3062.0
42.4689,3065.0
42.5204,3080.0
42.5719,3014.0
42.6233,3019.0
42.6748,3107.0
42.7263,3023.0
42.7777,3098.0
42.8292,3044.0
42.8807,2935.0
42.9321,3059.0
42.9836,2945.0
43.0351,2976.0
43.0865,3069.0
43.138,2944.0
43.1895,3111.0
43.2409,3092.0
43.2924,3086.0
43.3439,3100.0
43.3954,3086.0
43.4468,3064.0
43.4983,3085.0
43.5498,3077.0
43.6012,3149.0
43.6527,3108.0
43.7042,3173.0
43.7556,3089.0
43.8071,3266.0
43.8586,3166.0
43.91,3097.0
43.9615,3171.0
44.013,3078.0
44.0644,3162.0
44.1159,3176.0
44.1674,3247.0
44.2188,3327.0
44.2703,3274.0
44.3218,3271.0
44.3732,3296.0
44.4247,3374.0
44.4762,3243.0
44.5277,3403.0
44.5791,3477.0
44.6306,3565.0
44.6821,3672.0
44.7335,3643.0
44.785,3610.0
44.8365,3666.0
44.8879,3672.0
44.9394,3732.0
44.9909,3819.0
45.0423,3672.0
45.0938,3792.0
45.1453,3810.0
45.1967,3838.0
45.2482,3883.0
45.2997,3859.0
45.3511,4131.0
45.4026,4091.0
45.4541,4177.0
45.5056,4239.0
45.557,4319.0
45.6085,4497.0
45.66,4728.0
45.7114,4716.0
45.7629,5028.0
45.8144,5048.0
45.8658,5156.0
45.9173,5389.0
45.9688,5366.0
46.0202,5470.0
46.0717,5373.0
46.1232,5290.0
46.1746,5350.0
46.2261,5250.0
46.2776,5020.0
46.329,4939.0
46.3805,4723.0
46.432,4590.0
46.4834,4583.0
46.5349,4400.0
46.5864,4197.0
46.6379,4187.0
46.6893,4005.0
46.7408,3932.0
46.7923,3839.0
46.8437,3749.0
46.8952,3773.0
46.9467,3675.0
46.9981,3838.0
47.0496,3940.0
47.1011,4153.0
47.1525,4351.0
47.204,4793.0
47.2555,4288.0
47.3069,4292.0
47.3584,3832.0
47.4099,3554.0
47.4613,3486.0
47.5128,3462.0
47.5643,3361.0
47.6158,3245.0
47.6672,3274.0
47.7187,3152.0
47.7702,3199.0
47.8216,3254.0
47.8731,3184.0
47.9246,3282.0
47.976,3229.0
48.0275,3180.0
48.079,3250.0
48.1304,3320.0
48.1819,3333.0
48.2334,3325.0
48.2848,3322.0
48.3363,3367.0
48.3878,3307.0
48.4392,3355.0
48.4907,3464.0
48.5422,3582.0
48.5937,3645.0
48.6451,3787.0
48.6966,3893.0
48.7481,3779.0
48.7995,3977.0
48.851,3995.0
48.9025,4022.0
48.9539,4169.0
49.0054,4014.0
49.0569,4005.0
49.1083,3909.0
49.1598,3909.0
49.2113,3804.0
49.2627,3673.0
49.3142,3572.0
49.3657,3550.0
49.4171,3353.0
49.4686,3411.0
49.5201,3338.0
49.5715,3283.0
49.623,3176.0
49.6745,3064.0
49.726,3113.0
49.7774,3110.0
49.8289,3108.0
49.8804,3054.0
49.9318,3046.0
49.9833,2968.0
50.0348,3093.0
50.0862,3064.0
50.1377,3024.0
50.1892,3130.0
50.2406,2976.0
50.2921,2940.0
50.3436,3039.0
50.395,2964.0
50.4465,2848.0
50.498,2985.0
50.5494,3009.0
50.6009,2992.0
50.6524,3026.0
50.7039,2956.0
50.7553,3058.0
50.8068,2952.0
50.8583,2905.0
50.9097,2829.0
50.9612,2866.0
51.0127,2974.0
51.0641,2976.0
51.1156,2953.0
51.1671,2955.0
51.2185,2828.0
51.27,2998.0
51.32147,2963.0
51.3729,2887.0
51.4244,2976.0
51.4759,2916.0
51.5273,2911.0
51.5788,2973.0
51.6303,2936.0
51.6817,2878.0
51.7332,2913.0
51.7847,3062.0
51.8362,2882.0
51.8876,2942.0
51.9391,2983.0
51.9906,3001.0
52.042,2893.0
52.0935,2855.0
52.145,2962.0
52.1964,3063.0
52.2479,2994.0
52.2994,2918.0
52.3508,2920.0
52.4023,2991.0
52.4538,2950.0
52.5052,2935.0
52.5567,3025.0
52.6082,3001.0
52.6596,2949.0
52.7111,3078.0
52.7626,2957.0
52.8141,2879.0
52.8655,2919.0
52.917,2965.0
52.9685,2975.0
53.0199,3079.0
53.0714,2982.0
53.1229,3083.0
53.1743,3121.0
53.2258,3188.0
53.2773,3076.0
53.3287,3286.0
53.3802,3123.0
53.4317,3127.0
53.4831,3331.0
53.5346,3280.0
53.5861,3366.0
53.6375,3375.0
53.689,3380.0
53.7405,3456.0
53.7919,3423.0
53.8434,3628.0
53.8949,3572.0
53.9464,3637.0
53.9978,3762.0
54.0493,3836.0
54.1008,3939.0
54.1522,4105.0
54.2037,4109.0
54.2552,4241.0
54.3066,4361.0
54.3581,4384.0
54.4096,4418.0
54.461,4409.0
54.5125,4295.0
54.564,4418.0
54.6154,4308.0
54.6669,4313.0
54.7184,4272.0
54.7698,4203.0
54.8213,3948.0
54.8728,3888.0
54.9243,3888.0
54.9757,3728.0
55.0272,3695.0
55.0787,3657.0
55.1301,3673.0
55.1816,3532.0
55.2331,3477.0
55.2845,3476.0
55.336,3422.0
55.3875,3439.0
55.4389,3384.0
55.4904,3487.0
55.5419,3386.0
55.5933,3326.0
55.6448,3467.0
55.6963,3470.0
55.7477,3600.0
55.7992,3853.0
55.8507,3751.0
55.9021,3935.0
55.9536,4509.0
56.0051,4233.0
56.0566,4056.0
56.108,4675.0
56.1595,4870.0
56.211,4035.0
56.2624,4141.0
56.3139,4131.0
56.3654,3881.0
56.4168,3697.0
56.4683,3581.0
56.5198,3464.0
56.5712,3544.0
56.6227,3523.0
56.6742,3388.0
56.7256,3418.0
56.7771,3399.0
56.8286,3345.0
56.88,3373.0
56.9315,3440.0
56.983,3449.0
57.0345,3380.0
57.0859,3257.0
57.1374,3381.0
57.1889,3252.0
57.2403,3179.0
57.2918,3297.0
57.3433,3144.0
57.3947,3122.0
57.4462,3154.0
57.4977,3108.0
57.5491,3043.0
57.6006,3092.0
57.6521,2997.0
57.7035,2987.0
57.755,2913.0
57.8065,2931.0
57.8579,2986.0
57.9094,2943.0
57.9609,2800.0
58.0123,2826.0
58.0638,2848.0
58.1153,2807.0
58.1668,2760.0
58.2182,2754.0
58.2697,2873.0
58.3212,2834.0
58.3726,2711.0
58.4241,2773.0
58.4756,2726.0
58.527,2787.0
58.5785,2754.0
58.63,2911.0
58.6814,2890.0
58.7329,2882.0
58.7844,2933.0
58.8358,2950.0
58.8873,2746.0
58.9388,2709.0
58.9902,2785.0
59.0417,2691.0
59.0932,2642.0
59.1447,2725.0
59.1961,2672.0
59.2476,2737.0
59.2991,2819.0
59.3505,2833.0
59.402,2797.0
59.4535,2853.0
59.5049,2792.0
59.5564,2825.0
59.6079,2749.0
59.6593,2838.0
59.7108,2841.0
59.7623,2793.0
59.8137,2816.0
59.8652,2749.0
59.9167,2803.0
59.9681,2744.0
60.0196,2680.0
60.0368,2694.0