File: XRD/PDC_LDFZ_20200723_2_217_1_4h-BWO-ttipoffeedrod-solvent.csv
5.0,28126.0
5.05147,27300.0
5.10294,26639.0
5.1544,26285.0
5.20587,25356.0
5.25734,25080.0
5.30881,24717.0
5.36028,23943.0
5.41175,23617.0
5.46321,22901.0
5.514683,22362.0
5.56615,22005.0
5.61762,21815.0
5.66909,21261.0
5.72056,20911.0
5.77202,20845.0
5.82349,20283.0
5.87496,20134.0
5.92643,19274.0
5.9779,19295.0
6.029366,18598.0
6.08083,18559.0
6.1323,18180.0
6.18377,17569.0
6.23524,17403.0
6.28671,17328.0
6.33818,16527.0
6.38964,16207.0
6.44111,15774.0
6.49258,15541.0
6.544049,14991.0
6.59552,14708.0
6.64699,14416.0
6.69845,13880.0
6.74992,13551.0
6.80139,13247.0
6.85286,13041.0
6.90433,12399.0
6.9558,11998.0
7.00726,11697.0
7.058732,11656.0
7.1102,11092.0
7.16167,10789.0
7.21314,10585.0
7.26461,10168.0
7.31607,9931.0
7.36754,9652.0
7.41901,9454.0
7.47048,9369.0
7.52195,9020.0
7.57342,8740.0
7.62488,8438.0
7.67635,8069.0
7.72782,8122.0
7.77929,7983.0
7.83076,7596.0
7.88222,7599.0
7.93369,7473.0
7.98516,7332.0
8.03663,7286.0
8.088098,7189.0
8.13957,7253.0
8.19103,7352.0
8.2425,7078.0
8.29397,7159.0
8.34544,7288.0
8.39691,7366.0
8.44838,7233.0
8.49984,7317.0
8.55131,7116.0
8.602781,7311.0
8.65425,7305.0
8.70572,7321.0
8.75719,7282.0
8.80865,7413.0
8.86012,7315.0
8.91159,7137.0
8.96306,7239.0
9.01453,7352.0
9.066,7167.0
9.117464,7383.0
9.16893,7362.0
9.2204,7205.0
9.27187,7310.0
9.32334,7312.0
9.37481,7123.0
9.42627,7210.0
9.47774,7075.0
9.52921,7183.0
9.58068,7224.0
9.632147,7157.0
9.68362,7184.0
9.73508,7145.0
9.78655,7124.0
9.83802,7205.0
9.88949,7147.0
9.94096,7206.0
9.99243,7100.0
10.0439,7147.0
10.0954,7080.0
10.1468,7166.0
10.1983,7186.0
10.2498,6965.0
10.3012,7116.0
10.3527,7125.0
10.4042,7298.0
10.4556,7105.0
10.5071,7143.0
10.5586,6972.0
10.61,7089.0
10.6615,7134.0
10.713,7129.0
10.7644,7013.0
10.8159,7234.0
10.8674,7009.0
10.9189,7038.0
10.9703,6964.0
11.0218,6892.0
11.0733,6770.0
11.1247,6685.0
11.1762,6683.0
11.2277,6693.0
11.2791,6681.0
11.3306,6665.0
11.3821,6633.0
11.4335,6614.0
11.485,6685.0
11.5365,6584.0
11.5879,6542.0
11.6394,6545.0
11.6909,6453.0
11.7423,6337.0
11.7938,6394.0
11.8453,6570.0
11.8968,6464.0
11.9482,6490.0
11.9997,6210.0
12.0512,6391.0
12.1026,6316.0
12.1541,6309.0
12.2056,6124.0
12.257,6346.0
12.3085,6181.0
12.36,6083.0
12.4114,6026.0
12.4629,6127.0
12.5144,6096.0
12.5658,6042.0
12.6173,6015.0
12.6688,5966.0
12.7202,5966.0
12.7717,5971.0
12.8232,6050.0
12.8746,5724.0
12.9261,5759.0
12.9776,5877.0
13.0291,5835.0
13.0805,5722.0
13.132,5735.0
13.1835,5809.0
13.2349,5790.0
13.2864,5625.0
13.3379,5840.0
13.3893,5709.0
13.4408,5759.0
13.4923,5779.0
13.5437,5672.0
13.5952,5609.0
13.6467,5642.0
13.6981,5505.0
13.7496,5581.0
13.8011,5529.0
13.8525,5559.0
13.904,5510.0
13.9555,5506.0
14.007,5353.0
14.0584,5395.0
14.1099,5474.0
14.1614,5528.0
14.2128,5310.0
14.2643,5437.0
14.3158,5404.0
14.3672,5376.0
14.4187,5359.0
14.4702,5307.0
14.5216,5304.0
14.5731,5339.0
14.6246,5369.0
14.676,5192.0
14.7275,5335.0
14.779,5247.0
14.8304,5261.0
14.8819,5133.0
14.9334,5214.0
14.9849,5181.0
15.0363,5239.0
15.0878,5186.0
15.1393,5176.0
15.1907,5243.0
15.2422,5186.0
15.2937,5246.0
15.3451,5220.0
15.3966,5189.0
15.4481,5138.0
15.4995,5222.0
15.551,5240.0
15.6025,5262.0
15.6539,5147.0
15.7054,5135.0
15.7569,5173.0
15.8083,5185.0
15.8598,5379.0
15.9113,5286.0
15.9627,5254.0
16.0142,5113.0
16.0657,5148.0
16.1172,5245.0
16.1686,5352.0
16.2201,5237.0
16.2716,5340.0
16.323,5205.0
16.3745,5321.0
16.426,5243.0
16.4774,5256.0
16.5289,5220.0
16.5804,5224.0
16.6318,5365.0
16.6833,5268.0
16.7348,5324.0
16.7862,5288.0
16.8377,5427.0
16.8892,5311.0
16.9406,5172.0
16.9921,5420.0
17.0436,5400.0
17.0951,5274.0
17.1465,5308.0
17.198,5289.0
17.2495,5332.0
17.3009,5369.0
17.3524,5401.0
17.4039,5379.0
17.4553,5443.0
17.5068,5426.0
17.5583,5404.0
17.6097,5331.0
17.6612,5515.0
17.7127,5472.0
17.7641,5376.0
17.8156,5489.0
17.8671,5406.0
17.9185,5492.0
17.97,5366.0
18.0215,5463.0
18.0729,5427.0
18.1244,5528.0
18.1759,5379.0
18.2274,5497.0
18.2788,5351.0
18.3303,5612.0
18.3818,5406.0
18.4332,5397.0
18.4847,5469.0
18.5362,5340.0
18.5876,5412.0
18.6391,5458.0
18.6906,5457.0
18.742,5310.0
18.7935,5388.0
18.845,5467.0
18.8964,5351.0
18.9479,5455.0
18.9994,5425.0
19.0508,5425.0
19.1023,5380.0
19.1538,5416.0
19.2053,5288.0
19.2567,5391.0
19.3082,5358.0
19.3597,5316.0
19.4111,5455.0
19.4626,5396.0
19.5141,5422.0
19.5655,5630.0
19.617,5713.0
19.6685,5772.0
19.7199,5561.0
19.7714,5537.0
19.8229,5457.0
19.8743,5367.0
19.9258,5479.0
19.9773,5464.0
20.0287,5542.0
20.0802,5372.0
20.1317,5542.0
20.1831,5452.0
20.2346,5360.0
20.2861,5412.0
20.3376,5499.0
20.389,5428.0
20.44049,5353.0
20.492,5322.0
20.5434,5439.0
20.5949,5396.0
20.6464,5492.0
20.6978,5333.0
20.7493,5344.0
20.8008,5351.0
20.8522,5394.0
20.9037,5318.0
20.9552,5266.0
21.0066,5324.0
21.0581,5101.0
21.1096,5290.0
21.161,5273.0
21.2125,5308.0
21.264,5384.0
21.3155,5243.0
21.3669,5370.0
21.4184,5436.0
21.4699,5542.0
21.5213,5535.0
21.5728,5466.0
21.6243,5592.0
21.6757,5571.0
21.7272,5598.0
21.7787,5291.0
21.8301,5335.0
21.8816,5385.0
21.9331,5407.0
21.9845,5276.0
22.036,5343.0
22.0875,5344.0
22.1389,5265.0
22.1904,5231.0
22.2419,5295.0
22.2933,5253.0
22.3448,5259.0
22.3963,5397.0
22.4478,5293.0
22.4992,5298.0
22.5507,5442.0
22.6022,5316.0
22.6536,5283.0
22.7051,5344.0
22.7566,5361.0
22.808,5359.0
22.8595,5154.0
22.911,5314.0
22.9624,5376.0
23.0139,5430.0
23.0654,5241.0
23.1168,5365.0
23.1683,5213.0
23.2198,5348.0
23.2712,5263.0
23.3227,5360.0
23.3742,5512.0
23.4257,5397.0
23.4771,5829.0
23.5286,5961.0
23.5801,5922.0
23.6315,5635.0
23.683,5472.0
23.7345,5514.0
23.7859,5500.0
23.8374,5469.0
23.8889,5255.0
23.9403,5227.0
23.9918,5440.0
24.0433,5310.0
24.0947,5241.0
24.1462,5100.0
24.1977,5135.0
24.2491,5120.0
24.3006,5127.0
24.3521,5055.0
24.4035,5107.0
24.455,5136.0
24.5065,5218.0
24.558,5088.0
24.6094,5148.0
24.6609,5208.0
24.7124,5047.0
24.7638,5166.0
24.8153,5015.0
24.8668,5068.0
24.9182,4970.0
24.9697,5091.0
25.0212,5166.0
25.0726,4968.0
25.1241,4934.0
25.1756,5135.0
25.227,4925.0
25.2785,4946.0
25.33,4917.0
25.3814,5082.0
25.4329,5055.0
25.4844,5020.0
25.5359,5046.0
25.5873,5083.0
25.6388,5065.0
25.6903,5035.0
25.7417,5039.0
25.7932,5375.0
25.8447,5661.0
25.8961,5720.0
25.9476,5473.0
25.9991,4999.0
26.0505,5063.0
26.102,4966.0
26.1535,4852.0
26.2049,4716.0
26.2564,4824.0
26.3079,4838.0
26.3593,4929.0
26.4108,4812.0
26.4623,4742.0
26.5137,4793.0
26.5652,4725.0
26.6167,4748.0
26.6682,4732.0
26.7196,4573.0
26.7711,4633.0
26.8226,4583.0
26.874,4554.0
26.9255,4567.0
26.977,4596.0
27.0284,4772.0
27.0799,4635.0
27.1314,4528.0
27.1828,4666.0
27.2343,4786.0
27.2858,4833.0
27.3372,4751.0
27.3887,4734.0
27.4402,4772.0
27.4916,4761.0
27.5431,4745.0
27.5946,4830.0
27.6461,5156.0
27.6975,5608.0
27.749,6296.0
27.8005,6060.0
27.8519,5760.0
27.9034,5328.0
27.9549,5212.0
28.0063,5243.0
28.0578,5413.0
28.1093,5806.0
28.1607,6464.0
28.2122,8309.0
28.2637,13425.0
28.3151,28996.0
28.3666,46958.0
28.4181,42743.0
28.4695,28463.0
28.521,15578.0
28.5725,8612.0
28.6239,6531.0
28.6754,5597.0
28.7269,5239.0
28.7784,4764.0
28.8298,4524.0
28.8813,4528.0
28.9328,4371.0
28.9842,4397.0
29.0357,4304.0
29.0872,4390.0
29.1386,4350.0
29.1901,4282.0
29.2416,4091.0
29.293,4192.0
29.3445,4151.0
29.396,4083.0
29.4474,4064.0
29.4989,4123.0
29.5504,4235.0
29.6018,4073.0
29.6533,4126.0
29.7048,4196.0
29.7563,4151.0
29.8077,4263.0
29.8592,4405.0
29.9107,4786.0
29.9621,5435.0
30.0136,5958.0
30.0651,5954.0
30.1165,5418.0
30.168,5041.0
30.2195,4820.0
30.2709,4542.0
30.3224,4354.0
30.3739,4202.0
30.4253,3997.0
30.4768,3950.0
30.5283,3814.0
30.5797,3829.0
30.6312,3693.0
30.6827,3773.0
30.73415,3637.0
30.7856,3718.0
30.8371,3704.0
30.8886,3624.0
30.94,3684.0
30.9915,3619.0
31.043,3632.0
31.0944,3463.0
31.1459,3555.0
31.1974,3620.0
31.2488,3597.0
31.3003,3476.0
31.3518,3522.0
31.4032,3509.0
31.4547,3402.0
31.5062,3426.0
31.5576,3462.0
31.6091,3461.0
31.6606,3464.0
31.712,3531.0
31.7635,3426.0
31.815,3488.0
31.8665,3352.0
31.9179,3377.0
31.9694,3420.0
32.0209,3464.0
32.0723,3392.0
32.1238,3498.0
32.1753,3359.0
32.2267,3376.0
32.2782,3364.0
32.3297,3341.0
32.3811,3543.0
32.4326,3620.0
32.4841,3689.0
32.5355,3833.0
32.587,4470.0
32.6385,5644.0
32.6899,9225.0
32.7414,11436.0
32.7929,12885.0
32.8444,14357.0
32.8958,13236.0
32.9473,13184.0
32.9988,11996.0
33.0502,9940.0
33.1017,7830.0
33.1532,6270.0
33.2046,5495.0
33.2561,4538.0
33.3076,3994.0
33.359,3560.0
33.4105,3392.0
33.462,3234.0
33.5134,3264.0
33.5649,3174.0
33.6164,3247.0
33.6678,3009.0
33.7193,3084.0
33.7708,2981.0
33.8222,3046.0
33.8737,2944.0
33.9252,2961.0
33.9767,2931.0
34.0281,2963.0
34.0796,2912.0
34.1311,2897.0
34.1825,2896.0
34.234,2820.0
34.2855,2775.0
34.3369,2820.0
34.3884,2812.0
34.4399,2796.0
34.4913,2669.0
34.5428,2771.0
34.5943,2816.0
34.6457,2851.0
34.6972,2834.0
34.7487,2927.0
34.8001,2821.0
34.8516,2791.0
34.9031,2791.0
34.9546,2743.0
35.006,2761.0
35.0575,2716.0
35.109,2648.0
35.1604,2707.0
35.2119,2529.0
35.2634,2638.0
35.3148,2553.0
35.3663,2612.0
35.4178,2622.0
35.4692,2525.0
35.5207,2577.0
35.5722,2588.0
35.6236,2491.0
35.6751,2613.0
35.7266,2588.0
35.778,2590.0
35.8295,2592.0
35.88098,2930.0
35.9324,3582.0
35.9839,3531.0
36.0354,3371.0
36.0869,3048.0
36.1383,2735.0
36.1898,2506.0
36.2413,2493.0
36.2927,2494.0
36.3442,2512.0
36.3957,2434.0
36.4471,2486.0
36.4986,2420.0
36.5501,2371.0
36.6015,2404.0
36.653,2433.0
36.7045,2340.0
36.7559,2460.0
36.8074,2391.0
36.8589,2385.0
36.9103,2312.0
36.9618,2443.0
37.0133,2392.0
37.0648,2392.0
37.1162,2372.0
37.1677,2363.0
37.2192,2324.0
37.2706,2426.0
37.3221,2562.0
37.3736,2525.0
37.425,2598.0
37.4765,2648.0
37.528,2460.0
37.5794,2334.0
37.6309,2269.0
37.6824,2251.0
37.7338,2169.0
37.7853,2227.0
37.8368,2231.0
37.8882,2222.0
37.9397,2318.0
37.9912,2306.0
38.0426,2310.0
38.0941,2287.0
38.1456,2186.0
38.1971,2156.0
38.2485,2105.0
38.3,2194.0
38.3515,2172.0
38.4029,2091.0
38.4544,2268.0
38.5059,2371.0
38.5573,2307.0
38.6088,2278.0
38.6603,2215.0
38.7117,2139.0
38.7632,2092.0
38.8147,2094.0
38.8661,2072.0
38.9176,2158.0
38.9691,2070.0
39.0205,2116.0
39.072,2066.0
39.1235,2028.0
39.175,2108.0
39.2264,2014.0
39.2779,2096.0
39.3294,2055.0
39.3808,2064.0
39.4323,2152.0
39.4838,2012.0
39.5352,1970.0
39.5867,2083.0
39.6382,2087.0
39.6896,2085.0
39.7411,2086.0
39.7926,2208.0
39.844,2089.0
39.8955,2113.0
39.947,2094.0
39.9984,2038.0
40.0499,1979.0
40.1014,1928.0
40.1528,1966.0
40.2043,2006.0
40.2558,1965.0
40.3073,2046.0
40.3587,1973.0
40.4102,2028.0
40.4617,1997.0
40.5131,1970.0
40.5646,1989.0
40.6161,2012.0
40.6675,1986.0
40.719,1943.0
40.7705,1930.0
40.8219,1990.0
40.8734,1954.0
40.9249,1980.0
40.9763,2038.0
41.02781,1900.0
41.0793,1854.0
41.1307,1920.0
41.1822,1962.0
41.2337,1981.0
41.2852,1990.0
41.3366,1929.0
41.3881,1895.0
41.4396,1932.0
41.491,1971.0
41.5425,1981.0
41.594,2002.0
41.6454,2033.0
41.6969,2083.0
41.7484,1996.0
41.7998,1971.0
41.8513,1955.0
41.9028,1967.0
41.9542,1906.0
42.0057,1887.0
42.0572,1931.0
42.1086,1928.0
42.1601,1953.0
42.2116,1939.0
42.263,1919.0
42.3145,1947.0
42.366,2076.0
42.4175,1975.0
42.4689,2002.0
42.5204,1951.0
42.5719,1965.0
42.6233,1938.0
42.6748,1888.0
42.7263,1948.0
42.7777,1892.0
42.8292,1922.0
42.8807,1886.0
42.9321,1901.0
42.9836,1890.0
43.0351,1922.0
43.0865,1825.0
43.138,2002.0
43.1895,1852.0
43.2409,1938.0
43.2924,1951.0
43.3439,1929.0
43.3954,1907.0
43.4468,1872.0
43.4983,1887.0
43.5498,1825.0
43.6012,1801.0
43.6527,1841.0
43.7042,1841.0
43.7556,1813.0
43.8071,1781.0
43.8586,1879.0
43.91,1868.0
43.9615,1839.0
44.013,1846.0
44.0644,1849.0
44.1159,1883.0
44.1674,1836.0
44.2188,1886.0
44.2703,1875.0
44.3218,1866.0
44.3732,1850.0
44.4247,1795.0
44.4762,1850.0
44.5277,1745.0
44.5791,1843.0
44.6306,1861.0
44.6821,1788.0
44.7335,1835.0
44.785,1799.0
44.8365,1755.0
44.8879,1837.0
44.9394,1938.0
44.9909,1813.0
45.0423,1922.0
45.0938,1846.0
45.1453,2040.0
45.1967,2017.0
45.2482,2137.0
45.2997,2170.0
45.3511,2268.0
45.4026,2385.0
45.4541,2211.0
45.5056,2314.0
45.557,2136.0
45.6085,2022.0
45.66,1940.0
45.7114,1935.0
45.7629,1925.0
45.8144,1893.0
45.8658,1864.0
45.9173,1863.0
45.9688,1946.0
46.0202,1913.0
46.0717,1856.0
46.1232,1873.0
46.1746,1898.0
46.2261,1863.0
46.2776,1887.0
46.329,1916.0
46.3805,2038.0
46.432,2079.0
46.4834,2062.0
46.5349,2186.0
46.5864,2281.0
46.6379,2167.0
46.6893,2285.0
46.7408,2466.0
46.7923,2660.0
46.8437,2978.0
46.8952,3645.0
46.9467,4835.0
46.9981,7734.0
47.0496,10471.0
47.1011,13689.0
47.1525,16079.0
47.204,16202.0
47.2555,14858.0
47.3069,11972.0
47.3584,8749.0
47.4099,6289.0
47.4613,4544.0
47.5128,3616.0
47.5643,3281.0
47.6158,3061.0
47.6672,2810.0
47.7187,2587.0
47.7702,2266.0
47.8216,2089.0
47.8731,2071.0
47.9246,1955.0
47.976,2000.0
48.0275,2044.0
48.079,2139.0
48.1304,2279.0
48.1819,2264.0
48.2334,2069.0
48.2848,2048.0
48.3363,2007.0
48.3878,1878.0
48.4392,1904.0
48.4907,1823.0
48.5422,1977.0
48.5937,1950.0
48.6451,1964.0
48.6966,1908.0
48.7481,1799.0
48.7995,1847.0
48.851,1789.0
48.9025,1681.0
48.9539,1753.0
49.0054,1709.0
49.0569,1758.0
49.1083,1694.0
49.1598,1591.0
49.2113,1695.0
49.2627,1688.0
49.3142,1707.0
49.3657,1694.0
49.4171,1649.0
49.4686,1573.0
49.5201,1636.0
49.5715,1655.0
49.623,1692.0
49.6745,1751.0
49.726,1699.0
49.7774,1735.0
49.8289,1701.0
49.8804,1679.0
49.9318,1642.0
49.9833,1670.0
50.0348,1662.0
50.0862,1701.0
50.1377,1732.0
50.1892,1608.0
50.2406,1639.0
50.2921,1707.0
50.3436,1676.0
50.395,1665.0
50.4465,1612.0
50.498,1736.0
50.5494,1683.0
50.6009,1670.0
50.6524,1674.0
50.7039,1675.0
50.7553,1634.0
50.8068,1588.0
50.8583,1621.0
50.9097,1671.0
50.9612,1689.0
51.0127,1611.0
51.0641,1705.0
51.1156,1635.0
51.1671,1718.0
51.2185,1703.0
51.27,1731.0
51.32147,1741.0
51.3729,1790.0
51.4244,1747.0
51.4759,1750.0
51.5273,1709.0
51.5788,1696.0
51.6303,1871.0
51.6817,2008.0
51.7332,1893.0
51.7847,1962.0
51.8362,1832.0
51.8876,1796.0
51.9391,1762.0
51.9906,1705.0
52.042,1769.0
52.0935,1800.0
52.145,1735.0
52.1964,1781.0
52.2479,1788.0
52.2994,1712.0
52.3508,1672.0
52.4023,1658.0
52.4538,1730.0
52.5052,1796.0
52.5567,1819.0
52.6082,1769.0
52.6596,1714.0
52.7111,1602.0
52.7626,1641.0
52.8141,1646.0
52.8655,1664.0
52.917,1589.0
52.9685,1558.0
53.0199,1549.0
53.0714,1667.0
53.1229,1672.0
53.1743,1648.0
53.2258,1675.0
53.2773,1694.0
53.3287,1685.0
53.3802,1722.0
53.4317,1895.0
53.4831,1843.0
53.5346,1844.0
53.5861,1767.0
53.6375,1712.0
53.689,1706.0
53.7405,1777.0
53.7919,1720.0
53.8434,1753.0
53.8949,1785.0
53.9464,1723.0
53.9978,1770.0
54.0493,1706.0
54.1008,1738.0
54.1522,1820.0
54.2037,1936.0
54.2552,2073.0
54.3066,2086.0
54.3581,2026.0
54.4096,2009.0
54.461,1938.0
54.5125,1988.0
54.564,1801.0
54.6154,1752.0
54.6669,1743.0
54.7184,1754.0
54.7698,1770.0
54.8213,1891.0
54.8728,1936.0
54.9243,1849.0
54.9757,1854.0
55.0272,1853.0
55.0787,1854.0
55.1301,1851.0
55.1816,1854.0
55.2331,1877.0
55.2845,1976.0
55.336,2101.0
55.3875,2439.0
55.4389,2534.0
55.4904,2958.0
55.5419,3385.0
55.5933,4381.0
55.6448,6596.0
55.6963,11260.0
55.7477,13044.0
55.7992,12904.0
55.8507,14889.0
55.9021,16570.0
55.9536,13875.0
56.0051,13683.0
56.0566,15169.0
56.108,12669.0
56.1595,9366.0
56.211,8125.0
56.2624,6313.0
56.3139,4566.0
56.3654,3228.0
56.4168,2631.0
56.4683,2468.0
56.5198,2220.0
56.5712,2044.0
56.6227,1986.0
56.6742,1908.0
56.7256,1852.0
56.7771,1829.0
56.8286,1850.0
56.88,1797.0
56.9315,1827.0
56.983,1822.0
57.0345,1885.0
57.0859,1967.0
57.1374,2047.0
57.1889,2080.0
57.2403,2059.0
57.2918,1992.0
57.3433,1991.0
57.3947,1938.0
57.4462,1865.0
57.4977,1822.0
57.5491,1808.0
57.6006,1627.0
57.6521,1716.0
57.7035,1701.0
57.755,1720.0
57.8065,1611.0
57.8579,1771.0
57.9094,1691.0
57.9609,1661.0
58.0123,1699.0
58.0638,1754.0
58.1153,1797.0
58.1668,1786.0
58.2182,1801.0
58.2697,1953.0
58.3212,2009.0
58.3726,2199.0
58.4241,2472.0
58.4756,3027.0
58.527,4226.0
58.5785,6485.0
58.63,7772.0
58.6814,6695.0
58.7329,5660.0
58.7844,5564.0
58.8358,4313.0
58.8873,3169.0
58.9388,2442.0
58.9902,2123.0
59.0417,2028.0
59.0932,1840.0
59.1447,1769.0
59.1961,1704.0
59.2476,1680.0
59.2991,1731.0
59.3505,1673.0
59.402,1693.0
59.4535,1720.0
59.5049,1856.0
59.5564,1904.0
59.6079,2067.0
59.6593,2169.0
59.7108,2128.0
59.7623,2118.0
59.8137,1985.0
59.8652,1915.0
59.9167,1813.0
59.9681,1829.0
60.0196,1710.0
60.0368,1612.0